ENVI
samples = 320
lines = 250
bands = 256
header offset = 0
file type = ENVI Standard
data type = 2
interleave = bil
sensor type = Unknown
wavelength units = nm
binning = {1,1}
wavelength = {
865.11,
868.43,
871.75,
875.07,
878.39,
881.71,
885.03,
888.35,
891.67,
894.99,
898.31,
901.63,
904.95,
908.27,
911.59,
914.91,
918.23,
921.55,
924.87,
928.19,
931.51,
934.83,
938.15,
941.47,
944.79,
948.11,
951.43,
954.75,
958.07,
961.39,
964.71,
968.03,
971.35,
974.67,
977.99,
981.31,
984.63,
987.95,
991.27,
994.59,
997.91,
1001.23,
1004.55,
1007.87,
1011.19,
1014.51,
1017.83,
1021.15,
1024.47,
1027.79,
1031.11,
1034.43,
1037.75,
1041.07,
1044.39,
1047.71,
1051.03,
1054.35,
1057.67,
1060.99,
1064.31,
1067.63,
1070.95,
1074.27,
1077.59,
1080.91,
1084.23,
1087.55,
1090.87,
1094.19,
1097.51,
1100.83,
1104.15,
1107.47,
1110.79,
1114.11,
1117.43,
1120.75,
1124.07,
1127.39,
1130.71,
1134.03,
1137.35,
1140.67,
1143.99,
1147.31,
1150.63,
1153.95,
1157.27,
1160.59,
1163.91,
1167.23,
1170.55,
1173.87,
1177.19,
1180.51,
1183.83,
1187.15,
1190.47,
1193.79,
1197.11,
1200.43,
1203.75,
1207.07,
1210.39,
1213.71,
1217.03,
1220.35,
1223.67,
1226.99,
1230.31,
1233.63,
1236.95,
1240.27,
1243.59,
1246.91,
1250.23,
1253.55,
1256.87,
1260.19,
1263.51,
1266.83,
1270.15,
1273.47,
1276.79,
1280.11,
1283.43,
1286.75,
1290.07,
1293.39,
1296.71,
1300.03,
1303.35,
1306.67,
1309.99,
1313.31,
1316.63,
1319.95,
1323.27,
1326.59,
1329.91,
1333.23,
1336.55,
1339.87,
1343.19,
1346.51,
1349.83,
1353.15,
1356.47,
1359.79,
1363.11,
1366.43,
1369.75,
1373.07,
1376.39,
1379.71,
1383.03,
1386.35,
1389.67,
1392.99,
1396.31,
1399.63,
1402.95,
1406.27,
1409.59,
1412.91,
1416.23,
1419.55,
1422.87,
1426.19,
1429.51,
1432.83,
1436.15,
1439.47,
1442.79,
1446.11,
1449.43,
1452.75,
1456.07,
1459.39,
1462.71,
1466.03,
1469.35,
1472.67,
1475.99,
1479.31,
1482.63,
1485.95,
1489.27,
1492.59,
1495.91,
1499.23,
1502.55,
1505.87,
1509.19,
1512.51,
1515.83,
1519.15,
1522.47,
1525.79,
1529.11,
1532.43,
1535.75,
1539.07,
1542.39,
1545.71,
1549.03,
1552.35,
1555.67,
1558.99,
1562.31,
1565.63,
1568.95,
1572.27,
1575.59,
1578.91,
1582.23,
1585.55,
1588.87,
1592.19,
1595.51,
1598.83,
1602.15,
1605.47,
1608.79,
1612.11,
1615.43,
1618.75,
1622.07,
1625.39,
1628.71,
1632.03,
1635.35,
1638.67,
1641.99,
1645.31,
1648.63,
1651.95,
1655.27,
1658.59,
1661.91,
1665.23,
1668.55,
1671.87,
1675.19,
1678.51,
1681.83,
1685.15,
1688.47,
1691.79,
1695.11,
1698.43,
1701.75,
1705.07,
1708.39,
1711.71
}
